Folder: higher-risk-higher-rewards/data/instruments

Note: readme.md
# higher-risk-higher-rewards

This repository covers my attempt at putting together Prompt engineering, Data Science & cryptocurrency algorithmic trading

This wouldn't had been possible without the help of ChatGPT. It's a great bridge between natural language and syntax, not to mention a great reference for books.

File: XRD-USD.csv
Date,Adj Close,Close,High,Low,Open,Volume
2023-07-14,0.066239,0.066239,0.071281,0.061525,0.062887,8452130
2023-07-16,0.063691,0.063691,0.063939,0.062398,0.063757,3570198
2023-07-18,0.059441,0.059441,0.062198,0.059167,0.059989,4061001
2023-07-20,0.059367,0.059367,0.060746,0.058951,0.059365,2766088
2023-07-22,0.058336,0.058336,0.059228,0.056257,0.056363,2673714
2023-07-24,0.056339,0.056339,0.058364,0.056138,0.058238,1392790
2023-07-26,0.056534,0.056534,0.057574,0.056404,0.056753,1519910
2023-07-28,0.056875,0.056875,0.05692,0.05596,0.056227,1321904
2023-07-30,0.056044,0.056044,0.056477,0.055894,0.056266,1286349
2023-08-01,0.055442,0.055442,0.055825,0.054736,0.055516,1820269
2023-08-03,0.053639,0.053639,0.053991,0.052667,0.052758,2321178
2023-08-05,0.052741,0.052741,0.053026,0.052295,0.052734,1418240
2023-08-07,0.052384,0.052384,0.052921,0.052169,0.052535,1681145
2023-08-09,0.052574,0.052574,0.053252,0.052539,0.052897,1939258
2023-08-11,0.052127,0.052127,0.052637,0.051946,0.052235,1802237
2023-08-13,0.055681,0.055681,0.055895,0.05308,0.054929,3240655
2023-08-15,0.056658,0.056658,0.060215,0.056034,0.056071,3404137
2023-08-17,0.052298,0.052298,0.056665,0.052105,0.056344,2422944
2023-08-19,0.055157,0.055157,0.055963,0.052413,0.052731,1490036
2023-08-21,0.05423,0.05423,0.054921,0.053913,0.054921,1173088
2023-08-23,0.055422,0.055422,0.05685,0.05424,0.054643,1889177
2023-08-25,0.054036,0.054036,0.054301,0.053286,0.053397,2073300
2023-08-27,0.052686,0.052686,0.053654,0.052604,0.053504,889216
2023-08-29,0.053894,0.053894,0.054502,0.051796,0.052403,2239631
2023-08-31,0.052514,0.052514,0.053252,0.052376,0.052923,1813259
2023-09-02,0.051861,0.051861,0.052184,0.051449,0.052084,1928951
2023-09-04,0.051669,0.051669,0.051963,0.05132,0.051745,1697544
2023-09-06,0.05366,0.05366,0.054181,0.052672,0.054138,2107015
2023-09-08,0.062879,0.062879,0.063064,0.053748,0.053868,3845794
2023-09-10,0.057201,0.057201,0.062752,0.056546,0.062708,2662880
2023-09-12,0.056969,0.056969,0.057816,0.054492,0.055048,2869305
2023-09-14,0.056576,0.056576,0.057481,0.055396,0.057013,2345834
2023-09-16,0.055901,0.055901,0.056683,0.05584,0.056295,1725332
2023-09-18,0.056324,0.056324,0.057172,0.054512,0.055368,2423961
2023-09-20,0.05777,0.05777,0.057893,0.056733,0.05789,1690357
2023-09-22,0.063472,0.063472,0.063474,0.05759,0.057646,4854591
2023-09-24,0.062362,0.062362,0.068305,0.060536,0.067107,3787428
2023-09-26,0.061739,0.061739,0.064864,0.058938,0.061819,3807761
2023-09-28,0.060393,0.060393,0.064254,0.059852,0.062987,5298643
2023-09-30,0.057958,0.057958,0.059577,0.057381,0.058442,3246935
2023-10-02,0.056939,0.056939,0.059669,0.056477,0.059204,4676491
2023-10-04,0.05247,0.05247,0.05652,0.05247,0.056393,3420523
2023-10-06,0.048115,0.048115,0.050876,0.046747,0.047803,2662401
2023-10-08,0.048207,0.048207,0.048479,0.047193,0.048027,1377468
2023-10-10,0.044325,0.044325,0.044538,0.041216,0.044384,3209262
2023-10-12,0.040265,0.040265,0.041869,0.040161,0.04182,2284181
2023-10-14,0.039949,0.039949,0.040247,0.039895,0.040016,1398379
2023-10-16,0.039931,0.039931,0.042033,0.038618,0.04013,2171335
2023-10-18,0.041533,0.041533,0.041633,0.039429,0.039483,2752306
2023-10-20,0.043888,0.043888,0.044088,0.041676,0.041848,1710867
2023-10-22,0.042785,0.042785,0.042785,0.041236,0.04215,981737
2023-10-24,0.044886,0.044886,0.049374,0.043407,0.043663,4020134
2023-10-26,0.04417,0.04417,0.045946,0.043857,0.045946,2480914
2023-10-28,0.041154,0.041154,0.042231,0.040912,0.041389,1202418
2023-10-30,0.041676,0.041676,0.043263,0.041426,0.042859,1437697
2023-11-01,0.042277,0.042277,0.042628,0.040335,0.042546,2072001
2023-11-03,0.04392,0.04392,0.044088,0.040764,0.041624,2031619
2023-11-05,0.044615,0.044615,0.045793,0.042312,0.042804,2733274
2023-11-07,0.047576,0.047576,0.048828,0.046202,0.047142,2783620
2023-11-09,0.041583,0.041583,0.043747,0.041575,0.042804,4127321
2023-11-11,0.043481,0.043481,0.046057,0.042621,0.044028,2610330
2023-11-13,0.043953,0.043953,0.046008,0.043922,0.045145,2348053
2023-11-15,0.046838,0.046838,0.046908,0.043972,0.044996,2601037
2023-11-17,0.046484,0.046484,0.046528,0.044654,0.046307,2359604
2023-11-19,0.047028,0.047028,0.047066,0.045679,0.04606,1310779
2023-11-21,0.050003,0.050003,0.055832,0.049521,0.055832,4095949
2023-11-23,0.058871,0.058871,0.063206,0.057922,0.059175,3187940
2023-11-25,0.056491,0.056491,0.057288,0.054975,0.057214,2237623
2023-11-27,0.050681,0.050681,0.054475,0.049989,0.053824,2883723
2023-11-29,0.056302,0.056302,0.056355,0.050384,0.050978,4472246
2023-12-01,0.054662,0.054662,0.055539,0.052125,0.052783,2802185
2023-12-03,0.053744,0.053744,0.058706,0.053662,0.058382,3099584
2023-12-05,0.050702,0.050702,0.052084,0.048444,0.052084,3614665
2023-12-07,0.051344,0.051344,0.053023,0.050453,0.051239,5627649
2023-12-09,0.050716,0.050716,0.052132,0.050259,0.050639,5363913
2023-12-11,0.044656,0.044656,0.050154,0.043905,0.050082,3393822
2023-12-13,0.04875,0.04875,0.050367,0.046756,0.048423,5474222
2023-12-15,0.04466,0.04466,0.048181,0.044653,0.047487,4248068
2023-12-17,0.041886,0.041886,0.045282,0.041763,0.042549,4681556
2023-12-19,0.042242,0.042242,0.043737,0.041173,0.041639,4036508
2023-12-21,0.047457,0.047457,0.048851,0.045224,0.047448,6399057
2023-12-23,0.04452,0.04452,0.046504,0.044489,0.046432,3597769
2023-12-25,0.046908,0.046908,0.047176,0.045078,0.045518,7071338
2023-12-27,0.047104,0.047104,0.047434,0.04408,0.044556,7037211
2023-12-29,0.045015,0.045015,0.046582,0.044443,0.04598,5342182
2023-12-31,0.041506,0.041506,0.043664,0.041487,0.042598,4074878
2024-01-02,0.042019,0.042019,0.0434,0.041124,0.042483,4697241
2024-01-04,0.044246,0.044246,0.04511,0.040045,0.041214,4421205
2024-01-06,0.04224,0.04224,0.042878,0.04127,0.042798,2669055
2024-01-08,0.042269,0.042269,0.042553,0.040003,0.041344,3762702
2024-01-10,0.040605,0.040605,0.041291,0.03809,0.03983,4160057
2024-01-12,0.03931,0.03931,0.041,0.037803,0.040471,3974777
2024-01-14,0.040583,0.040583,0.041843,0.039683,0.040456,3371102
2024-01-16,0.04508,0.04508,0.046085,0.041643,0.043165,5540982
2024-01-18,0.042675,0.042675,0.046044,0.042379,0.045301,5183547
2024-01-20,0.044566,0.044566,0.045102,0.043179,0.044387,3091966
2024-01-22,0.040422,0.040422,0.044627,0.040345,0.044492,4403241
2024-01-24,0.04066,0.04066,0.04226,0.039709,0.041065,2939812
2024-01-26,0.043303,0.043303,0.043389,0.039794,0.040222,3471164
2024-01-28,0.041543,0.041543,0.044132,0.040858,0.042756,2974044
2024-01-30,0.040621,0.040621,0.043003,0.040551,0.042455,3381778
2024-02-01,0.040361,0.040361,0.041462,0.039395,0.039972,3142112
2024-02-03,0.040124,0.040124,0.040778,0.039604,0.04073,1593892
2024-02-05,0.038982,0.038982,0.039703,0.038513,0.039556,2155444
2024-02-07,0.039688,0.039688,0.039734,0.038313,0.039453,1919068
2024-02-09,0.039428,0.039428,0.039767,0.038378,0.038766,2493339
2024-02-11,0.03999,0.03999,0.042224,0.039756,0.042214,2357347
2024-02-13,0.041671,0.041671,0.04178,0.039614,0.04153,3284175
2024-02-15,0.043652,0.043652,0.044251,0.041913,0.043504,4490881
2024-02-17,0.044802,0.044802,0.045016,0.042448,0.042856,3802688
2024-02-19,0.048754,0.048754,0.054247,0.048023,0.051256,9433014
2024-02-21,0.047736,0.047736,0.050701,0.04633,0.048314,5286518
2024-02-23,0.045003,0.045003,0.04619,0.043551,0.045972,3734150
2024-02-25,0.047349,0.047349,0.047923,0.045539,0.04573,3484997
2024-02-27,0.046623,0.046623,0.0492,0.046537,0.047856,4548217
2024-02-29,0.043807,0.043807,0.046471,0.043667,0.044302,7036131
2024-03-02,0.045411,0.045411,0.047192,0.0446,0.045066,5126829
2024-03-04,0.04498,0.04498,0.046148,0.043453,0.045191,6488953
2024-03-06,0.039966,0.039966,0.043333,0.03829,0.040937,6431344
2024-03-08,0.039081,0.039081,0.040855,0.038293,0.03955,3713719
2024-03-10,0.042483,0.042483,0.04271,0.038996,0.039956,3413762
2024-03-12,0.043934,0.043934,0.044346,0.041789,0.043986,4859062
2024-03-14,0.062777,0.062777,0.070943,0.057525,0.060582,20091650
2024-03-16,0.056237,0.056237,0.066777,0.056098,0.064524,7730410
2024-03-18,0.071382,0.071382,0.076479,0.065553,0.066665,21204385
2024-03-20,0.070661,0.070661,0.072557,0.062241,0.063894,9657700
2024-03-22,0.065731,0.065731,0.074067,0.063917,0.068674,8967963
2024-03-24,0.070589,0.070589,0.071654,0.066654,0.067274,3855836
2024-03-26,0.081227,0.081227,0.085817,0.078534,0.080493,12730813
2024-03-28,0.080617,0.080617,0.082168,0.077478,0.078041,7806539
2024-03-30,0.075503,0.075503,0.078552,0.074964,0.077274,3566997
2024-04-01,0.072815,0.072815,0.076787,0.070731,0.076576,5652241
2024-04-03,0.067875,0.067875,0.069411,0.065692,0.067408,3900346
2024-04-05,0.0699,0.0699,0.070093,0.066178,0.069723,5393678
2024-04-07,0.0743,0.0743,0.074973,0.072344,0.072702,3927205
2024-04-09,0.071554,0.071554,0.077413,0.071254,0.077301,4451951
2024-04-11,0.068097,0.068097,0.071661,0.06756,0.071449,3809620
2024-04-13,0.057121,0.057121,0.062405,0.051483,0.06226,5850838
2024-04-15,0.05534,0.05534,0.060503,0.053962,0.058871,5389047
2024-04-17,0.051784,0.051784,0.054636,0.05082,0.05388,3412670
2024-04-19,0.052752,0.052752,0.054316,0.05049,0.052513,3983788
2024-04-21,0.05414,0.05414,0.055682,0.053771,0.055141,2393778
2024-04-23,0.054379,0.054379,0.055226,0.053759,0.0549,1860965
2024-04-25,0.052331,0.052331,0.052333,0.050379,0.051651,1889987
2024-04-27,0.050298,0.050298,0.051462,0.050022,0.051338,1888440
2024-04-29,0.048822,0.048822,0.050049,0.048118,0.050006,2139924
2024-05-01,0.043097,0.043097,0.046152,0.03893,0.046057,6673828
2024-05-03,0.044607,0.044607,0.04529,0.042934,0.043341,3262239
2024-05-05,0.045504,0.045504,0.046456,0.045052,0.046436,1677880
2024-05-07,0.043686,0.043686,0.044844,0.043632,0.043982,1963521
2024-05-09,0.0415862,0.0415862,0.0427416,0.0414729,0.0421546,1922513